Folder: xylib/samples

Note: samples/pesa.txt
4.2	0.74.25	0.84.3	14.35	0.54.4	0.84.45	0.94.5	1.14.55	04.6	0.64.65	0.84.7	0.94.75	0.74.8	0.64.85	0.74.9	0.84.95	0.95	15.05	0.95.1	0.85.15	0.75.2	0.85.25	0.85.3	0.75.35	15.4	0.75.45	0.85.5	0.65.55	15.6	0.95.65	1.45.7	1.75.75	2.45.8	2.75.85	3.35.9	3.85.95	4.56	5.16.05	5.76.1	6.46.15	6.96.2	7.5

Note: samples/with_commas.txt
Date+time(number) TEI- 42C-366-Nox SO2-TEI-367 CO2, raw Diff CO2_raw-MA
41110,0001736 0,29 -0,75 390,05
41110,0003472 0,26 -1,13 390,05
41110,0005208 0,3 0,21 390,05
41110,0006944 0,3 0,21 389,91
41110,0008681 0,29 -1 389,91
41110,0010417 0,21 0,07 389,91
41110,0012153 0,19 -0,6 389,91
41110,0013889 0,19 -0,6 389,77
41110,0015625 0,27 -0,14 389,77
41110,0017361 0,29 -1,13 389,77
41110,0019097 0,24 -0,31 389,77
41110,0020833 0,24 -0,31 390,01
41110,0022569 0,18 -1,24 390,01 0,151428571
41110,0024306 0,19 -0,52 390,01 0,137142857
41110,0026042 0,19 -0,39 390,01 0,102857143
41110,0027778 0,19 -0,39 390,01 0,068571429
41110,0029514 0,18 -0,81 390,01 0,034285714
41110,0031250 0,17 -0,72 390,01 0
41110,0032986 0,21 -0,38 390,01 0

Note: README
=====
xylib
=====

xylib is a portable library for reading files that contain x-y data from
powder diffraction, spectroscopy and other experimental methods.

Supported formats:

-  plain text (CSV or TSV or space-separated-values)
-  Crystallographic Information File for Powder Diffraction (pdCIF)
-  Siemens/Bruker UXD
-  Siemens/Bruker RAW ver. 1/2/3/4
-  Philips UDF
-  Philips RD (raw scan) V3
-  Rigaku DAT
-  Sietronics Sieray CPI
-  DBWS/DMPLOT data file
-  Canberra CNF (from Genie-2000 software; aka CAM format)
-  Canberra MCA *(only one of Canberra MCA formats?)*
-  XFIT/Koalariet XDD
-  RIET7/LHPM/CSRIET/ILL\_D1A5/PSI\_DMC DAT
-  Vamas ISO14976
   *(only experiment modes: SEM or MAPSV or MAPSVDP are supported; 
   only REGULAR scan_mode is supported)*
-  Princeton Instruments WinSpec SPE
   *(only 1-D data is supported)*
- χPLOT CHI_

.. _CHI: http://www.esrf.eu/computing/scientific/FIT2D/FIT2D_REF/node115.html#SECTION0001851500000000000000

The library is written in C++, but it comes with C and Python bindings.

It also comes with a tiny program **xyconv**, which converts
supported formats to TSV.

For API description, see `xylib/xylib.h`__ file.

__ http://xylib.svn.sourceforge.net/viewvc/xylib/trunk/xylib/xylib.h?view=markup

Licence: `LGPL <http://creativecommons.org/licenses/LGPL/2.1/>`_

DOWNLOAD
========

**Binary packages**: 

* MS Windows `DLL + xyconv.exe`_ (compiled with MSVC9)
* Linux RPMs_ and DEBs_

.. _`DLL + xyconv.exe`: http://downloads.sourceforge.net/xylib/xylib_win-0.8.zip
.. _RPMs: http://download.opensuse.org/repositories/home://wojdyr/
.. _DEBs: https://launchpad.net/~wojdyr/+archive/fityk

**Source**:

* `tarball`_ 
* Subversion repository_. 

.. _`tarball`: http://downloads.sourceforge.net/xylib/xylib-0.8.tar.bz2
.. _repository: https://xylib.svn.sourceforge.net/svnroot/xylib/trunk/

To build from source, you need:

* C++ compiler (we tested GCC, MinGW, Visual C++)
* Boost_ libraries (only headers). 

.. _Boost: http://www.boost.org/

On Unix, just type ``./configure && make``.
If you download the source from svn, run ``autoreconf -i`` first.

MISC NOTES
==========

The file `sample-urls`__ contains links to files in formats handled by xylib.

__ https://xylib.svn.sourceforge.net/svnroot/xylib/trunk/sample-urls

In addition to C++ API, we provide C API and very simple `Python bindings`_.
So far we had no requests for binding to other languages.

.. _`Python bindings`: https://xylib.svn.sourceforge.net/svnroot/xylib/trunk/xylib_capi.py

Documentation for programmers who want to extend xylib is
in the file `README.dev`__.

__ https://xylib.svn.sourceforge.net/svnroot/xylib/trunk/README.dev

freshmeat__ provides new version notifications.

__ http://freshmeat.net/projects/xylib/

xylib is used by:

-  `fityk <http://www.unipress.waw.pl/fityk>`_
-  `xyConvert <http://www.unipress.waw.pl/fityk/xyconvert>`_

AUTHORS
=======

-  Marcin Wojdyr wojdyr@gmail.com (maintainer)
-  Peng ZHANG zhangpengcas@gmail.com

CONTACT
====

File: BT86.UXD
; ...\RAW\BT86.raw(Diffrac Plus V1.01 file) converted by XCH V1.0
_FILEVERSION=2
_SAMPLE='BT86'
_USER='Department of Chemistry'
_ATTACHMENTS_CODE=0
_GONIOMETER_RADIUS=200.5
_FIXED_DIVSLIT=0.150000
_FIXED_SAMPLESLIT=1.000000
_SOLLER_SLITS='Y'
_FIXED_DETSLIT=25.22
_MONOCHROMATOR=0
; None
_THIN_FILM='N'
_BETA_FILTER='N'
_FIXED_ANTISLIT=12.38
_ANALYZER_CODE=0
; None
_DATEMEASURED='04-Mar-2010 20:59:14'
_WL_UNIT='A'
_WL1=1.540600
_WL2=1.544390
_WL3=1.392220
_WLRATIO=0.500000
_ANODE='Cu'
; (Data for Range number 1)
_DRIVE='COUPLED'
_STEPTIME=0.500000
_STEPSIZE=0.015592
_STEPMODE='C'
_START=3.000000
_THETA=1.500000
_2THETA=3.000000
_KHI=0.000000
_PHI=0.000000
_X=0.000000
_Y=0.000000
_Z=0.000000
_VARDIVERGENCE='V6'
_ANTISCATTER=0.000000
_DETECTOR=5
_HV=0.000000
_GAIN=0.000000
_LLD=0.000000
_ULD=0.000000
_DETECTORSLIT='unkn'
_AUX1=0.000000
_AUX2=0.000000
_AUX3=0.000000
_TIMESTARTED=17
_TEMP_RATE=-1.000000
_TEMP_DELAY=-1.000000
_KV=45
_MA=40
_RANGE_WL=1.540600
_3DPLANE=0
_GONIOMETER=-0.832000
_PSDCHANNEL0=0
_2THETACOUNTS
3.000	187
3.125	169
3.249	197
3.374	181
3.499	195
3.624	180
3.748	166
3.873	164
3.998	181
4.123	198
4.247	174
4.372	191
4.497	171
4.622	156
4.746	145
4.871	175
4.996	197
5.121	189
5.245	202
5.370	185
5.495	202
5.619	181
5.744	206
5.869	194
5.994	182
6.118	161
6.243	189
6.368	221
6.493	202
6.617	182
6.742	200
6.867	203
6.992	212
7.116	213
7.241	195
7.366	208
7.491	223
7.615	247
7.740	237
7.865	226
7.990	228
8.114	221
8.239	214
8.364	224
8.488	239
8.613	265
8.738	251
8.863	306
8.987	1138
9.112	1539
9.237	286
9.362	285
9.486	283
9.611	267
9.736	256
9.861	256
9.985	262
10.11	297
10.23	323
10.36	548
10.48	256
10.61	276
10.73	272
10.86	270
10.98	268
11.11	280
11.23	286
11.36	237
11.48	285
11.61	323
11.73	289
11.86	295
11.98	269
12.11	265
12.23	274
12.36	248
12.48	281
12.60	292
12.73	287
12.85	269
12.98	267
13.10	300
13.23	291
13.35	306
13.48	279
13.60	305
13.73	265
13.85	276
13.98	263
14.10	306
14.23	301
14.35	287
14.48	280
14.60	312
14.73	287
14.85	265
14.97	308
15.10	326
15.22	314
15.35	284
15.47	274
15.60	328
15.72	308
15.85	326
15.97	295
16.10	315
16.22	334
16.35	259
16.47	312
16.60	303
16.72	326
16.85	264
16.97	295
17.10	314
17.22	329
17.34	322
17.47	322
17.59	339
17.72	308
17.84	325
17.97	339
18.09	510
18.22	335
18.34	356
18.47	348
18.59	362
18.72	349
18.84	364
18.97	407
19.09	348
19.22	400
19.34	379
19.47	481
19.59	3780
19.71	1168
19.84	2279
19.96	441
20.09	513
20.21	1727
20.34	516
20.46	454
20.59	440
20.71	1109
20.84	459
20.96	624
21.09	404
21.21	365
21.34	375
21.46	397
21.59	399
21.71	428
21.84	411
21.96	392
22.08	412
22.21	407
22.33	389
22.46	439
22.58	433
22.71	408
22.83	418
22.96	410
23.08	412
23.21	426
23.33	678
23.46	469
23.58	414
23.71	457
23.83	415
23.96	434
24.08	448
24.21	409
24.33	425
24.45	431
24.58	468
24.70	494
24.83	458
24.95	485
25.08	455
25.20	443
25.33	419
25.45	453
25.58	401
25.70	452
25.83	431
25.95	417
26.08	436
26.20	623
26.33	816
26.45	421
26.58	427
26.70	883
26.82	793
26.95	450
27.07	742
27.20	637
27.32	1426
27.45	468
27.57	435
27.70	393
27.82	393
27.95	450
28.07	442
28.20	402
28.32	410
28.45	390
28.57	388
28.70	377
28.82	394
28.95	417
29.07	401
29.19	598
29.32	442
29.44	420
29.57	430
29.69	389
29.82	418
29.94	909
30.07	407
30.19	411
30.32	408
30.44	381
30.57	364
30.69	374
30.82	372
30.94	385
31.07	376
31.19	470
31.32	388
31.44	416
31.56	387
31.69	533
31.81	549
31.94	464
32.06	401
32.19	338
32.31	344
32.44	398
32.56	456
32.69	324
32.81	368
32.94	317
33.06	356
33.19	314
33.31	366
33.44	340
33.56	342
33.69	356
33.81	344
33.93	318
34.06	322
34.18	720
34.31	363
34.43	297
34.56	324
34.68	388
34.81	419
34.93	310
35.06	597
35.18	353
35.31	323
35.43	320
35.56	311
35.68	298
35.81	287
35.93	524
36.06	311
36.18	294
36.30	296
36.43	293
36.55	288
36.68	316
36.80	286
36.93	259
37.05	265
37.18	263
37.30	275
37.43	258
37.55	286
37.68	300
37.80	253
37.93	271
38.05	248
38.18	267
38.30	228
38.43	260
38.55	311
38.67	241
38.80	240
38.92	240
39.05	264
39.17	277
39.30	269
39.42	317
39.55	244
39.67	280
39.80	291
39.92	253
40.00	269

File: test4.csv
This file is based on SSRF-1.csv posted to fityk-users and has :\backslashes\2
2-Theta Angle (Degrees)
Intensity
       3000
 0.00604613  0.0000000E+00
 0.0181384  0.0000000E+00
 0.0302306  0.0000000E+00
 0.0423229  0.0000000E+00
 0.0544152 -1
 0.0665074 -1.50519
 0.0785997 -3.79042
 0.0906919  1.3851
 0.102784  0.472747
 0.114876 -1.1889
 0.126969 -0.0845023
 0.139061 -0.113139
 0.151153 -2.39004
 0.163245  0.770781