Folder: xylib/gsoc_xylib/samples/rigaku_dat

Note: gsoc_xylib/samples/rigaku_dat/README
=======================
* SAMPLE SOURCE
=======================
There's no direct URLs to get sample files, but you can also get a package of some Rigaku ".dat" sample files from the followng URL:
http://sdpd.univ-lemans.fr/course/week-1/rigaku.zip
linked at:
http://sdpd.univ-lemans.fr/course/week-1/sdpd-1.html

File: sample1r.dat
*TYPE           =  Raw
*CLASS          =  Standard measurement
*SAMPLE         =  SAMPLE1
*COMMENT        =  SAMPLE1
*FNAME          =  SAMPLE1R.DAT
*DATE           =  04-Mar-92 16:34

*GROUP_COUNT    =  1
*GONIO          =  RINT2000 Wide angle goniometer, 185
*ATTACHMENT     =  Standard Sample Holder
*ASC            =  1, 0, 1, 0
*FILTER         =  Not installed
*C_MONOCHRO     =  Not installed, 0
*SLIT_NAME      =  0, Divergence slit
*SLIT_NAME      =  1, Scattering slit
*SLIT_NAME      =  2, Receiving slit
*COUNTER        =  Scintillation counter, 0
*POS_FORMAT     =  0
*SCAN_AXIS      =  2 Theta / Theta
*MEAS_MODE      =  FT
*TARGET         =  29
*XRAY_CHAR      =  K-ALPHA1
*WAVE_LENGTH1   =  1.54056
*WAVE_LENGTH2   =  1.5444
*THICKNESS      =  0, 0
*MU             =  0, 0
*SCAN_MODE      =  2theta/theta
*SPEED_DIM      =  sec./step(FT)
*XUNIT          =  deg.
*YUNIT          =  cps
*SCALE_MODE     =  1
*REP_COUNT      =  1
*SE_COUNT       =  0
*STD_MATERIAL   =  Unknown, Unknown, 0, 0, 0, 0, 0, 0
*LATT_CONS      =  0, Hexagonal, Unknown, 10.118, 10.118, 10.118, 90, 90, 120
*SEC_COUNT      =  2
*TSPEC_SIZE     =  4
*TYPE_SPEC      =  0, 0
*TYPE_SPEC      =  1, 0
*TYPE_SPEC      =  2, 0
*TYPE_SPEC      =  3, 0
*MEMO           =  RS=0.15 DS=SS=1/2 MRS=NO

*BEGIN
*GROUP          =  0
*START          =  10.0000
*STOP           =  103.1200
*STEP           =  0.0200
*OFFSET         =  0.0000
*SPEED          =  10
*SLIT_SPEC      =  0, "1/2deg.", 0.87, 10
*SLIT_SPEC      =  1, "1/2deg.", 0.47, 20
*SLIT_SPEC      =  2, "0.15mm", 0.15, 20
*KV             =  20
*MA             =  200
*LOW            =  0
*HIGH           =  0
*CTEMPER        =  0, 0
*CTEMPER        =  1, 0
*CTEMPER        =  2, 0
*PAREX          =  0, 0
*PAREX          =  1, 0
*PAREX          =  2, 0
*PAREX          =  3, 0
*PAREX          =  4, 0
*PAREX          =  5, 0
*PAREX          =  6, 0
*PAREX          =  7, 0
*PAREX          =  8, 0
*PAREX          =  9, 0
*PAREX          =  10, 0
*PAREX          =  11, 0
*PAREX          =  12, 0
*PAREX          =  13, 10
*PAREX          =  14, 0.01
*PAREX          =  15, 0
*FULL_SCALE     =  1000
*EXTRA_SIZE     =  4
*EXTRA          =  0, 0
*EXTRA          =  1, 0
*EXTRA          =  2, 0
*EXTRA          =  3, 0
*INDEX          =  0, 0, 0
*COUNT          =  4657
 1048, 1162, 1108, 1163
 1065, 1016, 1022, 1033
 989, 953, 959, 947
 896, 824, 893, 826
 804, 711, 752, 782
 642, 737, 714, 665
 636, 606, 608, 618
 530, 516, 503, 531
 459, 423, 423, 451
 406, 380, 389, 400
 395, 432, 421, 441
 314, 325, 327, 329
 315, 314, 343, 345
 333, 342, 313, 289
 273, 275, 303, 287
 291, 283, 319, 267
 298, 258, 313, 278
 246, 278, 286, 263
 289, 259, 260, 291
 467, 473, 537, 574
 813, 597, 533, 442
 280, 262, 274, 254
 248, 273, 244, 229
 222, 260, 251, 231
 312, 344, 370, 377
 539, 402, 405, 365
 1301, 1712, 2162, 2618
 265, 244, 297, 257
 227, 223, 208, 230
 250, 254, 238, 237
 208, 239, 218, 248
 240, 241, 234, 243
 454, 517, 641, 729
 794, 635, 539, 402
 216, 220, 229, 235
 833, 1112, 1250, 1230
 232, 197, 204, 201
 182, 199, 216, 171
 191, 184, 203, 196
 204, 173, 208, 163
 195, 175, 178, 197
 187, 221, 189, 197
 186, 189, 185, 213
 215, 218, 235, 220
 229, 220, 252, 243
 429, 491, 573, 719
 936, 753, 614, 492
 230, 210, 211, 234
 228, 214, 215, 201
 276, 261, 284, 275
 749, 945, 1131, 1327
 3449, 2411, 1762, 1328
 389, 353, 327, 298
 262, 206, 208, 274
 275, 242, 307, 286
 1050, 1065, 1038, 1031
 15559, 15429, 13800, 11860
 732, 733, 657, 620
 350, 332, 321, 343
 666, 795, 1030, 1373
 603, 503, 487, 430
 259, 280, 282, 301
 658, 784, 982, 1100
 3892, 4511, 5840, 7649
 959, 847, 720, 652
 281, 285, 284, 273
 173, 183, 176, 162
 169, 192, 181, 162
 154, 165, 152, 160
 160, 164, 160, 152
 191, 208, 195, 171
 440, 523, 499, 642
 1686, 1399, 1158, 965
 219, 168, 190, 232
 148, 189, 168, 167
 157, 148, 119, 157
 142, 147, 143, 181
 194, 160, 176, 212
 290, 306, 335, 410
 2536, 2418, 2263, 1968
 353, 364, 373, 353
 1355, 1221, 1122, 1048
 1008, 961, 975, 909
 187, 197, 188, 172
 171, 176, 171, 243
 381, 323, 279, 246
 137, 142, 127, 133
 149, 149, 155, 157
 146, 136, 144, 158
 386, 457, 509, 529
 215, 202, 209, 162
 147, 142, 131, 143
 182, 176, 215, 191
 645, 798, 1027, 1321
 433, 358, 346, 362
 921, 1191, 1540, 2042
 1225, 1028, 871, 711
 236, 257, 259, 272
 1399, 1500, 1551, 1364
 405, 441, 488, 478
 174, 163, 196, 172
 122, 163, 165, 164
 185, 172, 151, 152
 138, 135, 142, 140
 380, 344, 335, 305
 151, 149, 149, 153
 239, 249, 254, 221
 380, 422, 408, 412
 204, 218, 206, 228
 393, 417, 513, 556
 3310, 3023, 2774, 2634
 379, 363, 360, 427
 419, 354, 309, 317
 1005, 1003, 955, 933
 321, 411, 396, 428
 3410, 3640, 3323, 3022
 703, 670, 702, 781
 1659, 1498, 1230, 1093
 260, 252, 219, 197
 208, 205, 193, 208
 162, 171, 179, 166
 181, 178, 143, 147
 301, 340, 416, 510
 577, 594, 567, 608
 1600, 1554, 1543, 1339
 345, 342, 307, 327
 737, 890, 943, 1153
 789, 753, 684, 716
 1558, 2090, 2440, 2759
 580, 500, 392, 350
 188, 193, 181, 169
 209, 206, 226, 206
 934, 1224, 1315, 1517
 411, 329, 326, 275
 180, 159, 158, 157
 155, 181, 162, 189
 260, 241, 294, 279
 537, 583, 655, 696
 838, 808, 713, 681
 250, 231, 233, 188
 209, 189, 199, 182
 190, 167, 198, 189
 751, 825, 973, 971
 718, 659, 561, 481
 207, 212, 222, 214
 598, 578, 589, 556
 554, 542, 533, 514
 500, 535, 548, 488
 219, 218, 234, 232
 1052, 1059, 998, 1014
 663, 700, 651, 630
 387, 343, 362, 406
 292, 266, 226, 208
 139, 129, 128, 140
 124, 133, 132, 126
 135, 114, 128, 134
 150, 147, 134, 143
 229, 254, 272, 247
 173, 172, 154, 170
 309, 394, 466, 465
 510, 458, 426, 417
 383, 349, 371, 354
 211, 220, 213, 206
 351, 309, 278, 303
 219, 217, 226, 222
 285, 305, 286, 255
 187, 167, 176, 182
 113, 112, 111, 134
 121, 122, 126, 140
 130, 141, 112, 105
 129, 113, 119, 111
 115, 125, 121, 130
 128, 126, 130, 126
 195, 217, 217, 237
 471, 514, 542, 507
 516, 555, 569, 502
 260, 224, 245, 235
 240, 239, 255, 247
 335, 326, 329, 322
 285, 254, 277, 238
 308, 288, 315, 322
 802, 874, 934, 1070
 1195, 1278, 1128, 1121
 913, 899, 893, 953
 337, 321, 297, 291
 200, 224, 212, 213
 178, 157, 133, 139
 225, 221, 239, 244
 424, 448, 436, 484
 900, 859, 916, 964
 624, 562, 580, 529
 271, 278, 268, 264
 522, 517, 495, 444
 294, 282, 310, 293
 246, 237, 239, 198
 231, 227, 210, 227
 251, 250, 254, 270
 440, 441, 417, 383
 225, 189, 216, 214
 260, 332, 353, 380
 627, 558, 610, 620
 517, 446, 493, 473
 341, 295, 277, 327
 263, 288, 277, 266
 168, 215, 137, 174
 154, 153, 149, 149
 190, 187, 214, 199
 255, 195, 234, 196
 157, 124, 159, 148
 219, 233, 248, 246
 197, 224, 209, 231
 273, 293, 329, 318
 298, 287, 273, 282
 174, 171, 147, 164
 162, 150, 147, 159
 211, 193, 197, 227
 208, 210, 238, 214
 504, 476, 457, 448
 283, 221, 233, 238
 265, 289, 244, 253
 220, 238, 227, 203
 655, 664, 584, 565
 576, 565, 531, 565
 406, 396, 350, 339
 229, 273, 249, 285
 236, 245, 241, 228
 227, 239, 264, 264
 294, 302, 325, 327
 283, 270, 252, 245
 212, 218, 213, 208
 210, 194, 182, 182
 178, 194, 223, 194
 258, 257, 248, 231
 158, 163, 192, 176
 154, 165, 171, 165
 286, 303, 345, 369
 340, 363, 338, 358
 178, 202, 213, 207
 191, 206, 184, 200
 196, 224, 221, 239
 340, 358, 386, 371
 328, 320, 284, 276
 252, 227, 287, 294
 283, 269, 263, 293
 189, 195, 156, 192
 233, 221, 245, 257
 536, 568, 546, 530
 438, 429, 437, 406
 270, 248, 259, 269
 174, 164, 187, 189
 196, 185, 175, 203
 179, 184, 200, 185
 251, 257, 267, 283
 335, 292, 310, 331
 422, 444, 451, 450
 359, 358, 366, 346
 264, 242, 251, 247
 224, 226, 182, 209
 287, 332, 334, 338
 331, 324, 307, 310
 372, 340, 334, 314
 263, 265, 288, 251
 242, 232, 251, 246
 304, 257, 282, 271
 210, 207, 229, 186
 200, 199, 207, 200
 296, 292, 286, 266
 355, 390, 344, 331
 348, 381, 351, 356
 278, 243, 233, 215
 173, 186, 154, 184
 194, 173, 195, 174
 186, 154, 169, 164
 245, 219, 254, 206
 237, 195, 219, 190
 228, 224, 211, 206
 191, 171, 169, 150
 149, 176, 204, 197
 245, 242, 213, 215
 183, 188, 182, 197
 231, 234, 247, 222
 243, 261, 262, 272
 241, 243, 236, 225
 203, 192, 165, 184
 165, 175, 162, 160
 169, 180, 169, 170
 219, 235, 230, 291
 333, 328, 296, 319
 392, 392, 431, 441
 374, 383, 395, 355
 431, 477, 448, 414
 434
*END
*EOF