Folder: xylib/gsoc_xylib/samples/uxd (part 3)

File: sample6.uxd
; C:\httpd\HtDocs\course\content\week-1\sample6.raw - (Diffrac AT V1) File converted by XCH V1.0
_FILEVERSION=1
_SAMPLE='BOB 529'
_WL1=1.540560
_WL2=1.544430
_WL3=1.392600
_WLRATIO=0.514000
_ANODE='Cu'
; (Data for Range number 1)
_DRIVE='COUPLED'
_STEPTIME=37
_STEPSIZE=0.020000
_STEPMODE='C'
_START=3.990000
_2THETA=3.990000
_THETA=0.000000
_KHI=0.000000
_PHI=0.000000
_COUNTS
    29285     31033     32827     33370     31807     28817     24784     20946
    13309     13436     13614     13912     14248     14634     15108     15176
    78022     80666     83387     84905     86822     87543     86826     86333
    21724     21244     20740     20178     19478     19097     18383     18108
    12040     12970     14505     16107     18730     20580     22469     23583
     4506      4300      4521      4504      4525      4520      4490      4511
     3465      3409      3269      3286      3339      3289      3207      3216
     2955      2983      2931      2843      2884      2905      2919      2916
     2673      2661      2624      2673      2737      2633      2725      2687
     3121      3249      3524      3675      3930      4257      4408      4754
     2882      3030      3038      3087      3147      3118      3208      3516
     2710      2716      2668      2731      2735      2662      2672      2677
     2769      2718      2781      2770      2704      2796      2962      2811
     2544      2645      2600      2640      2661      2581      2568      2566
     5328      5785      6223      6668      7203      8189      9254     11233
     3263      3288      3251      3176      3059      3024      3204      3214
     9019      9261      9150      9245      9387      9281      9115      8945
     7087      7842      8453      9429     11039     12925     15604     19274
     3927      3901      3881      3794      3780      3706      3622      3658
     4450      4619      4795      5108      5484      5900      6574      6846
     4092      3923      4013      4008      4038      4027      3903      3866
    15576     13702     12090     10757      9596      8902      8276      7834
     4501      4418      4401      4461      4435      4414      4297      4329
     4059      4100      4046      3968      4027      4004      3954      3841
     3951      3957      3875      3908      4003      4003      3988      3924
    10254     10780     11311     12235     13621     15326     16767     17496
     6561      6549      6613      6470      6594      6727      6819      6771
    10772     11387     11781     12689     12804     12939     12610     11898
    17150     16963     15806     14342     12961     11608     10092      8796
     3877      3669      3651      3630      3642      3637      3497      3562
     3212      3116      3178      3156      3102      3080      3028      3099
     3572      3711      3692      3766      4000      4114      4219      4368
     5839      5948      6086      6186      6326      6520      6572      6522
     9919     11108     12468     12877     12268     12127     12524     12554
     4500      4511      4419      4455      4412      4393      4327      4463
     3892      3955      3958      3922      4004      3995      3906      3933
     4073      3878      3791      3775      3744      3730      3737      3611
     3946      4242      4163      4315      4355      4232      4293      4000
     3481      3403      3392      3424      3373      3301      3343      3252
     3323      3400      3356      3509      3438      3469      3454      3350
     4000      4176      4334      4485      4483      4400      4269      4327
     5933      5714      5043      4720      4417      4054      3570      3470
     2556      2732      2591      2507      2553      2683      2589      2605
     2509      2470      2405      2429      2310      2343      2344      2299
     2178      2158      2146      2083      2221      2040      2158      2214
     2126      2124      2138      2200      2150      2093      2108      2102
     2087      1998      2096      2089      2140      2086      2124      2135
     2354      2475      2448      2544      2503      2456      2457      2458
     2311      2213      2316      2359      2495      2633      2942      3383
     2522      2496      2529      2463      2459      2376      2480      2413
     2193      2136      2133      2134      2105      2180      2208      2268
     3370      3366      3621      4101      4428      4662      5070      5455
     3600      3895      3973      3975      3975      3873      3859      3992
     2671      2621      2578      2504      2461      2347      2438      2472
     4271      4244      4346      4297      3973      3811      3688      3548
     2212      2107      2254      2265      2156      2193      2153      2208
     2349      2434      2547      2496      2342      2346      2324      2285
     2267      2195      2147      2132      2170      2252      2192      2176
     2752      2769      2803      2740      2681      2594      2691      2585
     5428      5472      5280      5276      5226      5198      5268      5091
     2481      2494      2441      2409      2391      2558      2445      2371
     2826      2801      2908      2874      2847      2823      2789      2763
     2369      2419      2326      2332      2176      2215      2168      2249
     1923      1839      1994      1972      1993      1998      1964      2046
     2002      2150      2192      2281      2300      2265      2309      2346
     2231      2330      2159      2182      2189      2221      2241      2220
     2677      2602      2643      2582      2590      2398      2565      2499
     2114      2032      2044      1994      2074      1933      2023      2024
     2232      2384      2430      2389      2369      2520      2553      2494
     3166      3070      2871      2714      2697      2555      2525      2490
     3892      3896      3798      3544      3461      3393      3339      3163
     2801      2946      2844      2719      2741      2540      2508      2622
     1991      1968      1992      1987      1945      1967      2016      1852
     2500      2308      2302      2201      2147      2139      2153      2161
     2220      2112      2089      2188      2173      2146      2138      2229
     1632      1727      1654      1689      1749      1710      1745      1752
     1419      1467      1423      1400      1408      1397      1344      1366
     1520      1559      1522      1443      1473      1314      1381      1321
     1161      1156      1208      1213      1198      1215      1254      1307
     1935      1809      1770      1669      1606      1654      1670      1557
     1560      1548      1470      1533      1366      1463      1372      1361
     1154      1197      1152      1276      1229      1201      1279      1301
     1227      1178      1286      1261      1274      1250      1292      1316
     1601      1477      1584      1482      1493      1476      1464      1418
     1128      1116      1104      1113      1061      1150      1115      1104
     1190      1148      1198      1148      1144      1226      1202      1230
     1376      1352      1349      1372      1300      1414      1339      1437
     1126      1022      1091      1120      1061      1114      1071      1043
     1087      1097      1080      1159      1084      1051       969      1034
     1108      1173      1161      1188      1132      1126      1084      1153
     1187      1049      1098      1171      1094      1162      1111      1163
     1319      1294      1344      1263      1350      1497      1427      1501
     1105      1068      1073      1090      1066      1122      1132      1087
     1179      1218      1202      1170      1172      1160      1174      1180
     1362      1436      1349      1353      1392      1314      1306      1370
     1304      1368      1288      1368      1359      1368      1457      1527
     1118      1170      1218      1268      1224      1261      1217      1285
     1180      1256      1170      1208      1185      1208      1190      1172
     1111      1191      1136      1152      1159      1198      1084      1198
     1079      1111      1132      1041      1175      1119      1148      1151
     1036      1148      1085      1040      1130      1163      1135      1117
     1663      1573      1564      1588      1528      1453      1508      1507
     1191      1217      1200      1202      1186      1212      1212      1165
     1205      1153      1181      1161      1179      1114      1151      1135
     1212      1197      1167      1209      1177      1183      1188      1181
      959      1008      1023      1058      1032      1088      1078      1068
      937       986      1037       927       995       960       979       960
      914       865       896       857       890       871       884       949
      796       798       829       873       856       832       835       860
      834       852       895       859       782       873       854       817
      792       828       783       811       795       832       792       778
      807       806       868       811       825       785       823       776
      796       809       859       821       798       826       858       807
      892       946       958       928       962       960       980      1023
      890       856       857       843       880       870       807       846
      907       940       928       874       879       883       921       903
      842       836       868       796       901       901       885       821
      899       858       856       935       893       894       814       881
      880       920       889       877       950       899       931       869
      804       841       845       862       880       886       819       879
     1141      1100      1118      1111      1108      1150      1166      1173
     1039