Folder: xylib/gsoc_xylib/samples/uxd

Note: gsoc_xylib/samples/uxd/README
=======================
* SAMPLE SOURCE
=======================
	sample1.uxd 
	sample2.uxd 
	sample3.uxd 
	sample4.uxd 
	synchro.uxd
will be download by the script from
http://www.mx.iucr.org/iucr-top/comm/cpd/QARR/data-kit.htm
The detailed URL of each file can be found in samples/get_samples.sh

File: CDLY14F34.UXD
; \\Cdlhp16\home\diff\mesures\raw2006\CDLY14F34.raw(Diffrac Plus V1.01 file) converted by XCH V1.0
_FILEVERSION=2
_SAMPLE='Corindon BRUKER v4'
_SITE='France'
_USER='R. VERA'
_ATTACHMENTS_CODE=0
_GONIOMETER_RADIUS=250
_FIXED_DIVSLIT=0.600000
_FIXED_SAMPLESLIT=0.000000
_FIXED_DETSLIT=12.09
_MONOCHROMATOR=0
; None
_THIN_FILM='N'
_BETA_FILTER='Y'
_FIXED_ANTISLIT=7.870000
_ANALYZER_CODE=0
; None
_DATEMEASURED='07-Apr-2006 18:32:37'
_WL_UNIT='A'
_WL1=1.540600
_WL2=1.544390
_WL3=1.392220
_WLRATIO=0.500000
_ANODE='Cu'
; (Data for Range number 1)
_DRIVE='COUPLED'
_STEPTIME=33.44
_STEPSIZE=0.021811
_STEPMODE='C'
_START=4.500000
_THETA=2.250000
_2THETA=4.500000
_KHI=0.000000
_PHI=0.000000
_X=0.000000
_Y=0.000000
_Z=0.000000
_VARDIVERGENCE='V4'
_ANTISCATTER=0.000000
_DETECTOR=5
_HV=0.000000
_GAIN=0.000000
_LLD=0.000000
_ULD=0.000000
_DETECTORSLIT='unkn'
_AUX1=0.000000
_AUX2=0.000000
_AUX3=0.000000
_TIMESTARTED=14
_TEMP_RATE=-1.000000
_TEMP_DELAY=-1.000000
_KV=33
_MA=45
_RANGE_WL=1.540600
_3DPLANE=0
_GONIOMETER=2.980400
_PSDCHANNEL0=0
_COUNTS
      162       150       138       136       143       141       137       146
      109       102        98        93       110        92        89        95
       69        76        71        77        68        76        92        75
       66        61        66        63        45        64        55        69
       51        44        42        43        59        48        50        52
       38        38        38        48        44        45        37        38
       38        34        39        38        24        44        36        43
       36        34        43        23        36        42        28        31
       37        37        32        32        30        33        42        52
       36        42        41        25        28        38        32        26
       16        29        25        32        16        28        30        20
       27        35        33        25        33        23        27        36
       31        39        22        31        31        30        32        38
       27        42        31        24        31        29        23        39
       36        27        31        33        38        43        27        29
       32        31        32        28        32        31        28        28
       18        25        28        30        22        26        27        32
       35        29        29        30        28        35        34        23
       20        34        27        32        25        41        37        30
       32        30        25        21        37        37        31        23
       34        30        26        25        33        26        40        33
       31        33        27        26        27        29        35        30
       36        30        34        41        29        30        25        41
       25        38        39        36        30        25        29        38
       37        30        31        40        29        40        37        36
       31        35        26        38        28        42        39        33
       44        43        29        28        41        40        45        31
       40        38        34        41        45        35        31        37
       36        46        46        32        42        24        40        34
       37        45        47        48        31        36        39        34
       71       109       134       194       358       503       911       873
       30        31        41        43        42        35        36        32
       36        39        31        30        32        47        37        35
       25        36        32        42        35        40        41        33
       41        42        52        34        32        30        34        32
       33        35        37        35        32        36        37        32
       37        31        37        33        30        30        25        33
       28        43        39        33        22        24        30        34
       21        38        36        31        38        21        35        35
       35        43        39        43        28        35        22        40
       24        32        30        31        30        31        29        31
       33        47        29        29        31        29        17        22
       25        19        26        33        37        38        33        31
       27        53        49        48        52        56        37        37
     1311      1925      1547       628       257       170       128       111
       33        39        38        54        32        40        42        44
       35        34        28        39        37        38        32        30
       39        31        33        41        29        41        41        42
       43        48        42        36        28        36        32        40
       31        27        35        37        27        31        19        29
       36        37        29        34        24        23        33        29
       39        30        27        35        37        21        28        33
       30        29        29        29        32        37        41        38
       36        32        47        32        30        57        61       101
       38        43        33        44        32        35        42        34
       47        41        40        59        61        39        46        41
       88        63        67        74        57        50        63        56
       34        41        30        28        32        44        27        33
       28        35        30        35        31        48        35        42
       28        29        34        29        29        31        28        34
       24        32        33        26        38        16        27        27
       42        26        34        34        36        42        30        36
       32        46        22        33        38        29        31        29
       28        26        30        32        30        27        27        28
       29        16        33        28        19        28        27        20
       29        31        25        30        31        28        25        30
       28        31        36        27        26        29        30        33
       37        27        25        28        26        30        38        33
       31        29        31        30        31        26        30        38
      457       713       644       338       144        84        68        73
       39        31        31        28        26        23        34        37
       28        27        24        26        31        36        24        24
       29        33        39        35        32        36        27        37
       33        36        36        44        39        34        37        33
       35        45        38        28        41        29        39        40
       37        49        52        44        51        49        53        52
     1138       722       732      1190      2141      2376      1609       673
       44        55        39        42        49        28        56        34
       44        40        41        34        39        35        33        44
       34        35        58        54        67        84        68        44
       37        36        40        36        32        31        35        36
       49        56        75       100       104       105        97        87
       33        46        32        43        39        40        38        38
       34        31        42        39        43        31        30        29
       32        38        30        34        30        26        35        37
       32        30        31        31        23        29        24        27
       40        44        37        39        39        30        36        33
       36        35        37        32        36        29        27        34
       41        52        41        39        42        40        36        49
      158       172       304       501       551       370       176        96
       54        29        44        49        32        34        45        44
       65        65        73        86        99       145       236       531
       40        55        41        30        47        30        35        42
       20        31        33        46        29        37        38        32
       29        24        38        31        34        45        26        36
       30        29        30        35        32        25        33        32
       41        33        33        32        30        26        30        18
       28        30        39        24        28        30        31        31
       31        29        37        44        43        26        21        37
       30        36        31        31        27        32        25        31
      123        86        85        66        47        64        65        45
       35        43        45        42        42        40        46        30
       43        34        37        39        38        33        39        43
       47        65        60        53        63        72        66        74
     1216      1080       631       439       469       653       929       741
       43        67        52        50        57        41        44        47
       29        36        36        39        52        37        33        32
       40        26        39        36        27        29        42        30
       37        32        35        30        35        39        39        41
       38        56        59        82       147       185       176       113
       27        31        32        28        34        34        35        27
       28        26        52        27        43        32        22        32
       33        35        44        40        33        31        27        36
       34        36        33        35        43        45        36        28
       30        29        28        27        40        33        47        40
       35        29        40        36        35        32        24        41
       28        35        30        35        27        31        30        40
       35        40        36        47        39        51        65        92
       36        39        37        32        47        36        44        43
       32        31        38        26        37        39        31        33
       34        28        28        37        30        37        32        34
      495       683       707       526       280       159       119        96
       41        40        39        36        37        34        39        47
       31

File: CDLY15F2.UXD
; \\Cdlhp16\home\diff\mesures\raw2006\CDLY15F2.raw(Diffrac Plus V1.01 file) converted by XCH V1.0
_FILEVERSION=2
_SAMPLE='LaB6 - FF 0.01  avec AAS'
_SITE='France'
_USER='R. VERA'
_ATTACHMENTS_CODE=0
_GONIOMETER_RADIUS=250
_FIXED_DIVSLIT=0.600000
_FIXED_SAMPLESLIT=0.000000
_FIXED_DETSLIT=12.09
_MONOCHROMATOR=0
; None
_THIN_FILM='N'
_BETA_FILTER='Y'
_FIXED_ANTISLIT=7.870000
_ANALYZER_CODE=0
; None
_DATEMEASURED='10-Apr-2006 16:17:08'
_WL_UNIT='A'
_WL1=1.540600
_WL2=1.544390
_WL3=1.392220
_WLRATIO=0.500000
_ANODE='Cu'
; (Data for Range number 1)
_DRIVE='COUPLED'
_STEPTIME=33.44
_STEPSIZE=0.021811
_STEPMODE='C'
_START=4.500000
_THETA=2.250000
_2THETA=4.500000
_KHI=0.000000
_PHI=0.000000
_X=0.000000
_Y=0.000000
_Z=0.000000
_DIVERGENCE=0.100000
_ANTISCATTER=0.000000
_DETECTOR=5
_HV=0.000000
_GAIN=0.000000
_LLD=0.000000
_ULD=0.000000
_DETECTORSLIT='unkn'
_AUX1=0.000000
_AUX2=0.000000
_AUX3=0.000000
_TIMESTARTED=15
_TEMP_RATE=-1.000000
_TEMP_DELAY=-1.000000
_KV=33
_MA=45
_RANGE_WL=1.540600
_3DPLANE=0
_GONIOMETER=2.978800
_PSDCHANNEL0=0
_COUNTS
       18        19        36        29        22        34        28        24
       10         5         9         9         6         7        10         9
        9         3        10         7         8         8         7        11
        9         9         6        11        10         9        12         6
        8         6         6        13        10        11        12         9
        6        12         8        12        16        11        13        12
       12         9         7        11         6        10        16        13
       13        14        11        14         9        11         7        11
        6         9         7        12         3        10         5         4
        8        11        12         3         7         5        16         8
        2         9         6         7         9         7         7         6
       11         6         3        10         8        10         4         5
        2        11         9         9         6         4         8        11
        5         7         5         5         1        11         3         4
        9        17         9        14        13        10        13        10
        5        10         3         8         6         7         6         3
        6         6         9         6         7         7         8         6
        5         4         7         3         5         2         9        10
        6         4         6         2         5         3         5         5
       10         8         3         5         8         6         4         5
        4         3         4        10         2         8         7         4
       20        27        48        41        66        80       111       195
       12         9        13         5         7         7         5         6
        4         4         9         6         6         9         5         5
        2         7         5         8         4        16         7         4
        5         8         6         5         6         5         4         7
        6         8         6         1         4         7         3         8
      122       162       169        98        42        43        25        25
        8         9        12         8        10        13         7         5
        7         4         5         8        12        10         4        10
        7         9        10         5         5         5         9         6
        9         4         6         3         6        10         4         5
       91        89        55        33        21        12         9        14
       11         9        11         3        12        11         4         5
        5         4         5         6         6         6         9         3
       12         9         5         3         8        10         4         8
        8         6         7         9         8         7         7        13
       14         9         7         7         5         6        10         6
        6         5         5         4         6         4         3        12
        7         5         7         6         5         4         5         8
        7         3         6         7         3        15        13         9
        3         8         7         1         8         5         3         4
        6         8         6         3         4         7         7         4
        4         6         8         5         7         9         8         7
        3         6         9         7         5         7         5         4
        5         6         6         8         6         2         4         6
        1         6         4         5         7         5         4         3
        1         1         6         1         5         6         2         6
       11        26        48        51        43        40        22        20
        4         8         5         6         2         7         5         6
        2         7         7        10         3         3         6         8
        6         6         0         9         6         6         9         4
        5         4         5         6         5         8         6         5
        5         5        10         4         7         4         6         8
        6         2         3         2         4         5         6         7
       52        68       134       127        59        36        30        24
        5         3         4         3         4        10         6         6
        7         7         5         1         3         5         2         5
        4         1         3         8         6         4         5         8
        6         3         5         1         3         6         5         3
        3         4         4         5         3         2         1         4
        4         8         5         4         5         3         3         6
        7         5         7         3         5         2         9         5
        4         3         3         0         3         7         2         4
        6         2         3         4         5         6         5         5
       11        11        12         5        10        10        12        14
        6         5         6         3        11         6         5         5
        4         5         4         5         4         7         5         5
        8        16         8        15        16        18        15        31
        3         4         7         4         3         5        10         4
        5         5         3         3         3         6         4         2
        8         2         2         3         7         0         6         4
        2         5         4         5         8         7         4         2
       10         7         4         4         7         4         2         5
        5         4         7         2         2         1         7         7
        5         7         5         4         8         2         8         6
        2         5         2         4         2         6         4         3
        3         2         7         0         5         2         1         5
       14        10         9        13        13        23        16        28
        7         6         3         1         6         3         3         7
        3         3         3         2         3         2         4         6
        9         6        11         4        11        12        13        22
        3         2         5         1         3         3         3         3
        6         4         4         6         5         3         4         2
        2         1         4         3         2         4         5         2
        2         3         1         2         4         2         3         7
        1         2         3         2         3         2         2         0
        1         1         1         1         2         0         1         1
        1         1         3         2         1         0         5         1
        0         0         2         1         1         1         0         1
        0         0         2         1         0         1         0         0
        0         1         0         1         0         2         1         1
        0         1         0         0         0         0         0         0
        1         0         0         0         1         0         0         0
        0         0         0         1         0         0         0         0
        0         0         0         0         0         0         0         0
        0         0         0         0         0         0         0         0
        0         0         0         0         1         0         0         0
        0         0         0         0         0         0         0         0
        1         0         0         0         0         0         0         0
        0         0         0         0         1         0         0         0
        0         0         0         0         0         1         0         0
        0         1         3         0         0         0         0         0
        0         0         0         2         0         0         1         1
        1         1         0         0         0         0         0         0
        0         0         0         0         0         0         0         0
        0         0         0         0         0         0         0         0
        0         0         0         0         0         0         0         1
        0         0         0         0         0         0         0         0
        0         0         0         0         0         0         0         0
        0         0         0         0         0         0         0         0
        0         0         0         0         0         0         0         1
        0         0         0         0         0         0         0         0
        0         0         0         0         1         1         0         0
        0         0         0         0         0         0         0         0
        0         0         0         0         0         0         0         0
        0         0         1         0         0         0         0         0
        0         0         0         0         0         0         0         0
        0         0         0         0         0         0         0         0
        0         0         0         0         0         0         0         1