Folder: xylib/gsoc_xylib/samples/uxd (part 2)

File: nist1976.uxd
; D:\cristallo\eva\nist1976.raw(Diffrac Plus V1.01 file) converted by XCH V1.0
_FILEVERSION=2
_SAMPLE='40KV-40MA,DS0.05,SekMono0.6S'
_+SAMPLE='This configuration file has been created by the Bruker AXS ConfigProgram imitating the old SAG-free format style for compatibility to'
_SITE='AXS GERMANY'
_GONIOMETER_CODE=1
; D5000 Theta/2Theta; Reflection Rotation
_SAMPLE_CHANGER_CODE=0
_ATTACHMENTS_CODE=0
_GONIOMETER_RADIUS=200.5
_FIXED_DIVSLIT=0.000000
_FIXED_SAMPLESLIT=0.000000
_SOLLER_SLITS='Y'
_FIXED_DETSLIT=0.200000
_MONOCHROMATOR=0
; None
_SOLLER_SLITS_2='Y'
_THIN_FILM='N'
_BETA_FILTER='N'
_FIXED_ANTISLIT=1.000000
_ANALYZER_CODE=0
; None
_DATEMEASURED='19-Oct-1998 15:41:22'
_RUNTIME=260020
_WL1=1.540560
_WL2=1.544390
_WL3=1.392220
_WLRATIO=0.500000
_ANODE='Cu'
; (Data for Range number 1)
_DRIVE='COUPLED'
_STEPTIME=20
_STEPSIZE=0.010000
_STEPMODE='S'
_START=20
_THETA=10
_2THETA=20
_PHI=0.000000
_DIVERGENCE=0.700000
_ANTISCATTER=0.700000
_DETECTOR=0
; None
_HV=912.389
_GAIN=100
_LLD=0.739646
_ULD=1.843540
_DETECTORSLIT='out'
_AUX1=0.000000
_AUX2=0.000000
_AUX3=0.000000
_TIMESTARTED=0.636000
_ROTATION_SPEED=30
_TEMP_RATE=0.000000
_TEMP_DELAY=0.000000
_KV=40
_MA=40
_RANGE_WL=1.540600
_3DPLANE=1
_COUNTS
       65        66        57        50        59        50        54        51
       64        66        80        48        67        67        52        61
       62        71        54        60        64        58        64        84
       69        62        63        69        66        71        55        76
       59        72        78        63        83        85        71        72
     1891      1437      1771      2660      2963      2231      1091       551
       78        73        66        70        83        68        53        69
       48        49        48        58        67        64        51        58
       50        53        65        49        57        57        68        73
       64        53        61        35        54        47        51        59
       52        51        47        46        45        51        48        44
       46        35        54        36        40        52        42        47
       38        39        39        43        38        45        36        44
       40        43        48        38        48        43        37        47
       36        55        46        43        61        52        54        41
       30        41        46        35        35        24        48        42
       93        74        94        73        79        61        63        55
       37        33        34        42        34        32        35        38
       34        47        39        32        26        37        35        35
       31        34        39        39        38        42        37        40
       23        35        39        42        33        26        35        36
      313       210       170       155       154       137       119       115
       28        39        33        31        34        39        35        36
       35        35        31        38        35        39        30        36
       21        26        32        36        35        28        35        25
       33        37        31        28        35        42        33        30
       26        30        21        28        33        34        26        34
       34        25        25        22        28        26        33        27
       21        26        27        34        34        25        28        30
      422       637      1084      1768      2731      3629      4022      3230
       48        39        39        21        29        26        40        28
       33        26        25        37        27        37        26        35
       26        21        27        40        30        30        41        29
       53        53        58        56        62        50        76        48
       45        43        43        50        44        38        51        37
       25        28        33        37        23        22        39        31
       34        31        30        35        22        35        43        24
      922      1082       960       724       494       331       219       135
       34        33        30        32        32        35        30        33
       26        24        31        22        33        36        39        22
       40        37        26        24        32        25        21        29
       34        23        26        45        31        30        36        46
       42        34        29        39        29        34        26        30
     1096      1725      2175      2561      2272      1594      1128       731
       22        33        27        24        37        25        28        25
      109       103        83        67        55        46        32        23
       22        23        20        28        26        33        26        26
       22        32        23        30        29        28        36        21
       36        33        24        33        19        26        17        29
       19        28        28        22        26        31        29        28
       31        31        26        41        27        33        34        29
      723       589       516       566       610       838      1063      1270
       26        24        38        25        29        38        19        31
       19        20        24        26        26        23        17        11
       31        38        34        24        35        41        39        42
       20        17        16        19        18        26        13        25
       27        18        23        29        27        29        23        25
       28        16        31        12        21        19        18        16
       24        22        15        25        23        22        16        18
       17        25        21        20        26        30        22        26
       19        26        19        19        21        24        10        16
       23        13        28        20        19        24        25        31
       39        31        33        30        28        24        21        23
       49        68        85        98       109       158       219       302
       30        19        20        23        22        23        18        20
       19        22        25        16        13        19        20        18
       17        15        23        25        31        18        21        12
       54        49        43        69        77        75        91        99
       24        19        25        27        23        24        27        24
       14        20        12        16        18        16        10        18
       58        47        44        34        33        24        34        24
       17        21        25        17        19         9        21        20
       26        31        28        25        30        27        37        28
       23        15        31        20        23        18        15        26
       25        31        28        27        16        22        29        21
       15        16        17        16        25        21        21        15
       27        21        11        16        20        26        16        20
       22        16        16        12        18        13        11        23
       13        19        11        16        13        19        11        21
       14        19        22        15        16        21        21        21
       25        19        27        21        14        13        20        23
       17        41        29        32        28        26        36        27
       16        16        23        22        25        16        16        21
       21        14        10        14        11        28        12        10
      105       112        84        60        59        34        35        50
       30        21        22        16        27        30        24        31
       74        77        85        83        78       104        95       105
       33        27        28        30        21        24        29        27
       24        20        35        30        23        23        19        16
       20        21        21        19        18        14        20        20
       19        19        28        19        19        22        18        16
       56        69        79        90       131       110       139       139
       18        26        21        20        22        13        17        18
       18        22        29        26        21        29        25        21
       26        21        21        20        28        21        15        33
       22        20        28        19        23        23        17        29
      198       241       265       288       355       431       522       602
       30        27        25        38        26        37        33        35
      268       324       349       372       430       497       463       474
      134       131       143       172       215       238       260       294
       28        46        35        26        29        35        41        37
       27        31        35        31        33        43        20        32
       17        25        23        21        27        21        24        18
       29        29        25        38        22        21        31        30
       43        64        47        67        49        71        54        55
       29        20        23        26        30        29        27        31
       13        27        18        19        18        22        23        29
       15        20        17        24        26        30        23        28
       45        45        44        55        41        49        41        60
       98       135       120       141       185       192       203       205
      131       117       105       104        85        95        78        81
       27        32        32        25        34        23        33        29
       52        51        55        46        67        40        31        41
       27        28        30        24        30        33        29        43
       28        17        34        22        23        31        35        31
       39        39        38        37        56        57        36        29
      530       558       612       692       705       846       821       930
      934

File: sample2.uxd
; C:\httpd\HtDocs\course\content\week-1\sample2.raw - (Diffrac AT V1) File converted by XCH V1.0
_FILEVERSION=1
_SAMPLE='VINAIGRE'
_WL1=1.540600
_WL2=1.544430
_WL3=1.392600
_WLRATIO=0.514000
_ANODE='Cu'
; (Data for Range number 1)
_DRIVE='COUPLED'
_STEPTIME=4.000000
_STEPSIZE=0.040000
_STEPMODE='C'
_START=4.980000
_2THETA=4.980000
_THETA=0.000000
_KHI=0.000000
_PHI=0.000000
_COUNTS
      665       632       637       624       677       640       600       622
      591       590       575       530       624       559       534       555
      537       522       538       545       541       535       548       519
      540       539       495       532       508       509       496       455
      495       523       475       489       457       493       499       491
      452       501       479       442       443       514       463       439
      454       460       485       431       467       481       473       486
      475       452       529       498       532       466       555       594
      558       586       622       596       694       637       728       750
      745       775       853       905       968      1008      1123      1213
     1239      1451      1551      1674      1908      2193      2495      2640
     3066      3134      3131      2664      2680      3000      3221      3586
     4083      4761      5435      6443      7738      9157     10620     12234
    12880     11889      8911      6623      3872      1629       971       777
      601       540       434       437       398       346       355       328
      321       336       354       352       339       310       307       333
      342       330       325       359       371       350       321       290
      287       289       279       299       276       295       309       263
      286       310       254       271       280       279       278       246
      281       244       244       254       222       232       275       282
      254       266       235       255       262       268       263       244
      271       259       261       249       252       217       242       260
      262       242       247       251       237       234       241       243
      244       244       254       261       233       246       268       269
      270       234       253       272       282       311       364       335
      377       402       447       439       511       552       614       700
      872      1069      1264      1473      1272       779       436       347
      275       234       248       235       215       222       229       227
      212       253       260       213       225       243       243       269
      258       260       257       287       327       336       343       375
      454       476       516       576       711       758      1051      1242
     1405      1380       937       648       554       479       418       404
      419       336       257       232       220       232       247       198
      213       187       232       215       209       239       229       262
      246       274       280       311       309       349       410       448
      551       628       499       346       313       264       293       307
      346       353       423       508       571       530       540       484
      493       506       594       695       875       869       696       449
      407       387       388       465       544       579       704       741
      695       469       348       267       244       230       234       242
      205       243       248       240       268       286       341       368
      431       513       624       684       506       383       290       231
      235       206       218       202       184       192       218       187
      189       181       173       212       172       188       231       228
      202       202       168       190       198       198       186       186
      173       211       208       179       215       204       213       208
      233       213       219       237       211       205       220       223
      229       243       201       206       217       252       245       280
      318       330       359       391       343       343       309       305
      244       268       247       247       238       235       233       256
      215       212       239       259       224       271       245       255
      279       311       370       367       437       458       512       585
      727      1021      1244      1366      1260       918       645       515
      469       493       586       689       838       924       876       626
      535       528       537       474       409       403       386       364
      450       523       589       551       473       377       292       310
      293       276       280       280       310       259       300       361
      389       468       537       693       798       722       714       722
      876      1056      1521      1995      1942      1546       931       514
      369       339       323       338       283       278       289       301
      294       345       351       381       453       490       566       591
      782       879       937       793       647       570       538       595
      581       521       361       330       249       271       256       289
      262       300       296       296       349       322       368       457
      590       752       865       884       739       516       383       321
      255       309       300       261       234       238       266       268
      280       279       266       235       282       266       285       260
      275       311       323       333       328       379       367       462
      522       678       825      1184      1550      1801      1931      1530
     1204      1161      1334      1676      2394      3451      4217      4202
     3288      2196      1397       989       913      1058      1266      1555
     1764      1721      1273       906       700       746       757       836
      968      1182      1346      1385      1046       805       508       364
      373       341       350       359       340       406       492       485
      466       398       365       298       279       291       311       266
      282       286       295       264       262       249       244       263
      284       303       342       354       443       462       464       445
      408       382       420       431       392       422       441       460
      545       525       647       756      1002      1134      1254      1101
      878       666       508       383       425       476       541       654
      676       617       590       627       645       812      1095      1487
     1698      1538      1264       894       623       459       348       322
      309       264       225       247       256       231       247       249
      268       237       261       279       259       294       312       377
      399       471       432       361       353       285       277       268
      231       248       228       259       284       253       272       271
      307       343       420       506       655       780       820       685
      642       431       432       377       404       453       520       482
      434       381       344       302       285       303       250       256
      259       253       297       332       395       462       509       430
      521       516       462       427       378       298       300       255
      222       212       223       229       219       251       221       240
      225       200       193       193       184       163       196       183
      227       179       186       198       195       200       224       208
      256       287       304       345       306       353       354       302
      290       300       288       263       230       240       222       247
      272       275       240       262       213       200       238       195
      203       205       213       228       200       212       230       243
      206       230       205       219       212       230       209       229
      264       255       318       346       376       380       450       551
      681       760       930      1232      1621      1925      1758      1457
     1129       772       486       379       304       278       258       257
      283       265       296       379       389       526       607       649
      499       473       464       368       391       416       473       490
      542       515       515       458       476       502       558       804
     1191      1344      1300      1032       838       640       485       431
      360       335       275       306       210       238       219       238
      218       214       193       203       216       215       231       230
      239       217       246       252       274       271       263       243
      218       274       276       266